#
#
#
#
#
#
#
#   Quelldatei:purecomp003.gxx
#   Zieldatei:purecomp003.dat
#
#  Querschnitt: 172.732
#  Messlaenge:   15.000
# [N/mm**2]	[N]		[%-ext]		[%-trav]	[s]		[mm]
-0.000000	-0.000000	-0.000000	-0.000000	0.000000	266.990000
-0.009500	-1.640000	-0.746700	-0.746700	0.878212	266.990000
-0.021300	-3.680000	-1.000000	-1.000000	1.176125	266.890000
-0.037300	-6.440000	-1.426700	-1.426700	1.677977	266.747000
-0.053800	-9.300000	-1.813300	-1.813300	2.132667	266.595000
-0.070200	-12.120000	-2.266700	-2.266700	2.665922	266.442000
-0.085800	-14.820000	-2.720000	-2.720000	3.199059	266.290000
-0.101400	-17.520000	-3.206700	-3.206700	3.771479	266.140000
-0.116700	-20.160000	-3.626700	-3.626700	4.265451	265.996000
-0.133000	-22.980000	-4.080000	-4.080000	4.798589	265.847000
-0.147700	-25.520000	-4.533300	-4.533300	5.331726	265.708000
-0.162100	-28.000000	-4.953300	-4.953300	5.825698	265.573000
-0.178100	-30.760000	-5.406700	-5.406700	6.358953	265.431000
-0.193900	-33.500000	-5.860000	-5.860000	6.892091	265.289000
-0.209500	-36.180000	-6.280000	-6.280000	7.386063	265.149000
-0.224900	-38.840000	-6.760000	-6.760000	7.950603	265.013000
-0.239900	-41.440000	-7.186700	-7.186700	8.452455	264.878000
-0.255800	-44.180000	-7.606700	-7.606700	8.946428	264.740000
-0.273000	-47.160000	-8.026700	-8.026700	9.440400	264.596000
-0.290300	-50.140000	-8.480000	-8.480000	9.973537	264.451000
-0.307400	-53.100000	-8.966700	-8.966700	10.545957	264.307000
-0.322300	-55.680000	-9.446700	-9.446700	11.110497	264.176000
-0.335700	-57.980000	-9.900000	-9.900000	11.643634	264.056000
-0.349000	-60.280000	-10.293300	-10.293300	12.106204	263.938000
-0.363900	-62.860000	-10.713300	-10.713300	12.600176	263.813000
-0.379900	-65.620000	-11.133300	-11.133300	13.094149	263.681000
-0.396300	-68.460000	-11.586700	-11.586700	13.627404	263.547000
-0.413400	-71.400000	-12.040000	-12.040000	14.160541	263.409000
-0.430000	-74.280000	-12.493300	-12.493300	14.693678	263.276000
-0.446000	-77.040000	-12.913300	-12.913300	15.187651	263.144000
-0.462900	-79.960000	-13.366700	-13.366700	15.720906	263.007000
-0.478700	-82.680000	-13.820000	-13.820000	16.254043	262.877000
-0.494200	-85.360000	-14.273300	-14.273300	16.787180	262.747000
-0.509800	-88.060000	-14.660000	-14.660000	17.241988	262.620000
-0.527400	-91.100000	-15.146700	-15.146700	17.814408	262.484000
-0.542200	-93.660000	-15.566700	-15.566700	18.308380	262.364000
-0.559100	-96.580000	-15.986700	-15.986700	18.802352	262.233000
-0.577300	-99.720000	-16.473300	-16.473300	19.374655	262.096000
-0.592900	-102.420000	-16.893300	-16.893300	19.868627	261.969000
-0.609800	-105.340000	-17.313300	-17.313300	20.362599	261.841000
-0.627900	-108.460000	-17.766700	-17.766700	20.895854	261.707000
-0.645600	-111.520000	-18.153300	-18.153300	21.350544	261.574000
-0.666000	-115.040000	-18.606700	-18.606700	21.883799	261.428000
-0.684000	-118.140000	-19.093300	-19.093300	22.456101	261.292000
-0.700900	-121.060000	-19.546700	-19.546700	22.989356	261.164000
-0.717900	-124.000000	-19.966700	-19.966700	23.483328	261.037000
-0.734500	-126.880000	-20.420000	-20.420000	24.016466	260.911000
-0.752000	-129.900000	-20.840000	-20.840000	24.510438	260.782000
-0.770600	-133.100000	-21.226700	-21.226700	24.965246	260.651000
-0.791600	-136.740000	-21.680000	-21.680000	25.498383	260.507000
-0.814100	-140.620000	-22.133300	-22.133300	26.031520	260.358000
-0.833400	-143.960000	-22.586700	-22.586700	26.564775	260.219000
-0.852300	-147.220000	-23.040000	-23.040000	27.097912	260.085000
-0.871100	-150.460000	-23.460000	-23.460000	27.591885	259.952000
-0.891100	-153.920000	-23.913300	-23.913300	28.125022	259.815000
-0.911200	-157.400000	-24.333300	-24.333300	28.618994	259.680000
-0.931000	-160.820000	-24.786700	-24.786700	29.152249	259.544000
-0.934600	-161.440000	-24.980000	-24.980000	29.379594	259.482000
-0.924200	-159.640000	-24.980000	-24.980000	29.379594	259.507000
-0.874800	-151.100000	-24.526700	-24.526700	29.912732	259.682000
-0.829000	-143.200000	-23.946700	-23.946700	30.594884	259.866000
-0.794800	-137.280000	-23.426700	-23.426700	31.206469	260.020000
-0.767800	-132.620000	-23.006700	-23.006700	31.700441	260.153000
-0.738500	-127.560000	-22.493300	-22.493300	32.304263	260.296000
-0.714600	-123.440000	-22.100000	-22.100000	32.766833	260.421000
-0.689600	-119.120000	-21.680000	-21.680000	33.260806	260.553000
-0.663700	-114.640000	-21.226700	-21.226700	33.793943	260.694000
-0.640900	-110.700000	-20.840000	-20.840000	34.248750	260.827000
-0.615800	-106.360000	-20.320000	-20.320000	34.860335	260.970000
-0.594200	-102.640000	-19.866700	-19.866700	35.393473	261.102000
-0.573600	-99.080000	-19.446700	-19.446700	35.887445	261.231000
-0.554300	-95.740000	-18.993300	-18.993300	36.420700	261.353000
-0.535000	-92.420000	-18.573300	-18.573300	36.914672	261.477000
-0.513600	-88.720000	-18.153300	-18.153300	37.408645	261.614000
-0.492600	-85.080000	-17.700000	-17.700000	37.941782	261.753000
-0.472500	-81.620000	-17.246700	-17.246700	38.474919	261.890000
-0.452800	-78.220000	-16.793300	-16.793300	39.008174	262.024000
-0.435500	-75.220000	-16.340000	-16.340000	39.541311	262.152000
-0.417200	-72.060000	-15.920000	-15.920000	40.035284	262.283000
-0.400400	-69.160000	-15.466700	-15.466700	40.568421	262.408000
-0.381900	-65.960000	-15.013300	-15.013300	41.101676	262.540000
-0.365800	-63.180000	-14.593300	-14.593300	41.595648	262.665000
-0.349300	-60.340000	-14.206700	-14.206700	42.050338	262.793000
-0.331600	-57.280000	-13.720000	-13.720000	42.622758	262.929000
-0.316100	-54.600000	-13.266700	-13.266700	43.155895	263.056000
-0.300400	-51.880000	-12.846700	-12.846700	43.649868	263.182000
-0.283700	-49.000000	-12.393300	-12.393300	44.183123	263.315000
-0.268700	-46.420000	-11.973300	-11.973300	44.677095	263.441000
-0.252500	-43.620000	-11.520000	-11.520000	45.210232	263.577000
-0.237400	-41.000000	-11.100000	-11.100000	45.704205	263.708000
-0.222000	-38.340000	-10.646700	-10.646700	46.237342	263.843000
-0.206800	-35.720000	-10.193300	-10.193300	46.770597	263.977000
-0.193100	-33.360000	-9.740000	-9.740000	47.303734	264.102000
-0.179700	-31.040000	-9.320000	-9.320000	47.797707	264.229000
-0.165900	-28.660000	-8.866700	-8.866700	48.330844	264.357000
-0.152600	-26.360000	-8.446700	-8.446700	48.824816	264.482000
-0.138000	-23.840000	-8.060000	-8.060000	49.279624	264.619000
-0.123400	-21.320000	-7.606700	-7.606700	49.812761	264.759000
-0.108700	-18.780000	-7.186700	-7.186700	50.306733	264.904000
-0.094700	-16.360000	-6.700000	-6.700000	50.879153	265.046000
-0.082200	-14.200000	-6.246700	-6.246700	51.412291	265.180000
-0.069900	-12.080000	-5.793300	-5.793300	51.945545	265.313000
-0.058400	-10.080000	-5.406700	-5.406700	52.400235	265.443000
-0.045200	-7.800000	-5.013300	-5.013300	52.862923	265.586000
-0.031400	-5.420000	-4.560000	-4.560000	53.396060	265.740000
-0.019000	-3.280000	-4.140000	-4.140000	53.890032	265.889000
-0.006400	-1.100000	-3.686700	-3.686700	54.423170	266.040000
0.006300	1.080000	-3.300000	-3.300000	54.877977	266.196000
0.019000	3.280000	-2.813300	-2.813300	55.450397	266.355000
0.030200	5.220000	-2.360000	-2.360000	55.983534	266.505000
0.042400	7.320000	-1.973300	-1.973300	56.438342	266.657000
0.054800	9.460000	-1.520000	-1.520000	56.971479	266.815000
0.067400	11.640000	-1.066700	-1.066700	57.504616	266.979000
0.079400	13.720000	-0.646700	-0.646700	57.998589	267.139000
0.092300	15.940000	-0.193300	-0.193300	58.531844	267.306000
0.093700	16.180000	-0.033300	-0.033300	58.720024	267.371000
0.087500	15.120000	-0.033300	-0.033300	58.720024	267.324000
0.061900	10.700000	-0.486700	-0.486700	59.253278	267.129000
0.038300	6.620000	-1.000000	-1.000000	59.856983	266.926000
0.018300	3.160000	-1.520000	-1.520000	60.468568	266.742000
0.000600	0.100000	-1.940000	-1.940000	60.962540	266.574000
-0.017600	-3.040000	-2.426700	-2.426700	61.534960	266.402000
-0.033600	-5.800000	-2.880000	-2.880000	62.068098	266.244000
-0.049700	-8.580000	-3.333300	-3.333300	62.601235	266.090000
-0.065700	-11.340000	-3.753300	-3.753300	63.095207	265.938000
-0.083300	-14.380000	-4.240000	-4.240000	63.667627	265.779000
-0.099500	-17.180000	-4.693300	-4.693300	64.200764	265.630000
-0.115700	-19.980000	-5.113300	-5.113300	64.694737	265.483000
-0.132600	-22.900000	-5.566700	-5.566700	65.227992	265.336000
-0.150100	-25.920000	-6.053300	-6.053300	65.800294	265.185000
-0.165900	-28.660000	-6.506700	-6.506700	66.333549	265.045000
-0.181400	-31.340000	-6.926700	-6.926700	66.827521	264.911000
-0.197100	-34.040000	-7.380000	-7.380000	67.360659	264.777000
-0.212900	-36.780000	-7.800000	-7.800000	67.854631	264.642000
-0.230900	-39.880000	-8.220000	-8.220000	68.348603	264.498000
-0.248100	-42.860000	-8.673300	-8.673300	68.881741	264.355000
-0.264500	-45.680000	-9.126700	-9.126700	69.414996	264.222000
-0.280100	-48.380000	-9.580000	-9.580000	69.948133	264.089000
-0.295800	-51.100000	-10.066700	-10.066700	70.520553	263.958000
-0.311000	-53.720000	-10.486700	-10.486700	71.014525	263.835000
-0.327300	-56.540000	-10.906700	-10.906700	71.508498	263.707000
-0.342700	-59.200000	-11.326700	-11.326700	72.002470	263.581000
-0.360100	-62.200000	-11.780000	-11.780000	72.535607	263.445000
-0.376700	-65.060000	-12.200000	-12.200000	73.029580	263.315000
-0.394000	-68.060000	-12.653300	-12.653300	73.562717	263.179000
-0.412100	-71.180000	-13.106700	-13.106700	74.095972	263.042000
-0.427900	-73.920000	-13.560000	-13.560000	74.629109	262.912000
-0.445000	-76.860000	-14.013300	-14.013300	75.162246	262.779000
-0.460600	-79.560000	-14.400000	-14.400000	75.617054	262.657000
-0.478400	-82.640000	-14.853300	-14.853300	76.150191	262.524000
-0.495300	-85.560000	-15.340000	-15.340000	76.722611	262.393000
-0.510700	-88.220000	-15.760000	-15.760000	77.216583	262.271000
-0.528700	-91.320000	-16.180000	-16.180000	77.710556	262.140000
-0.546000	-94.320000	-16.600000	-16.600000	78.204528	262.010000
-0.564100	-97.440000	-17.053300	-17.053300	78.737665	261.879000
-0.582800	-100.660000	-17.506700	-17.506700	79.270920	261.747000
-0.600100	-103.660000	-17.926700	-17.926700	79.764893	261.617000
-0.619200	-106.960000	-18.346700	-18.346700	80.258865	261.480000
-0.639300	-110.420000	-18.800000	-18.800000	80.792002	261.340000
-0.657800	-113.620000	-19.253300	-19.253300	81.325140	261.207000
-0.675700	-116.720000	-19.706700	-19.706700	81.858395	261.077000
-0.694500	-119.960000	-20.160000	-20.160000	82.391532	260.947000
-0.712400	-123.060000	-20.613300	-20.613300	82.924669	260.819000
-0.730800	-126.240000	-21.000000	-21.000000	83.379477	260.691000
-0.751500	-129.800000	-21.420000	-21.420000	83.873449	260.555000
-0.773800	-133.660000	-21.873300	-21.873300	84.406586	260.409000
-0.794100	-137.160000	-22.326700	-22.326700	84.939841	260.273000
-0.813900	-140.580000	-22.780000	-22.780000	85.472979	260.137000
-0.832400	-143.780000	-23.200000	-23.200000	85.966951	260.009000
-0.853300	-147.400000	-23.620000	-23.620000	86.460923	259.873000
-0.876600	-151.420000	-24.073300	-24.073300	86.994061	259.729000
-0.896400	-154.840000	-24.526700	-24.526700	87.527315	259.598000
-0.917800	-158.540000	-24.946700	-24.946700	88.021288	259.463000
-0.907800	-156.800000	-24.980000	-24.980000	88.060453	259.460000
-0.884800	-152.840000	-24.853300	-24.853300	88.209468	259.544000
-0.832900	-143.860000	-24.273300	-24.273300	88.891620	259.739000
-0.793000	-136.980000	-23.686700	-23.686700	89.581535	259.909000
-0.763300	-131.840000	-23.266700	-23.266700	90.075507	260.047000
-0.734000	-126.780000	-22.780000	-22.780000	90.647927	260.192000
-0.708700	-122.420000	-22.326700	-22.326700	91.181064	260.322000
-0.684500	-118.240000	-21.906700	-21.906700	91.675037	260.449000
-0.658800	-113.800000	-21.453300	-21.453300	92.208292	260.586000
-0.635600	-109.780000	-21.066700	-21.066700	92.662981	260.715000
-0.611000	-105.540000	-20.613300	-20.613300	93.196236	260.857000
-0.588400	-101.640000	-20.126700	-20.126700	93.768539	260.993000
-0.567400	-98.000000	-19.706700	-19.706700	94.262511	261.122000
-0.546400	-94.380000	-19.253300	-19.253300	94.795766	261.253000
-0.526800	-91.000000	-18.800000	-18.800000	95.328903	261.378000
-0.509100	-87.940000	-18.413300	-18.413300	95.783711	261.499000
-0.486100	-83.960000	-17.993300	-17.993300	96.277683	261.644000
-0.466300	-80.540000	-17.506700	-17.506700	96.849985	261.779000
-0.446900	-77.200000	-17.053300	-17.053300	97.383240	261.912000
-0.429100	-74.120000	-16.633300	-16.633300	97.877213	262.042000
-0.410300	-70.880000	-16.180000	-16.180000	98.410350	262.176000
-0.391500	-67.620000	-15.726700	-15.726700	98.943487	262.309000
-0.374900	-64.760000	-15.273300	-15.273300	99.476742	262.434000
-0.358000	-61.840000	-14.820000	-14.820000	100.009879	262.562000
-0.343000	-59.240000	-14.433300	-14.433300	100.464687	262.681000
-0.325800	-56.280000	-14.013300	-14.013300	100.958659	262.813000
-0.308300	-53.260000	-13.493300	-13.493300	101.570244	262.950000
-0.294000	-50.780000	-13.106700	-13.106700	102.024934	263.071000
-0.278200	-48.060000	-12.653300	-12.653300	102.558189	263.198000
-0.262600	-45.360000	-12.233300	-12.233300	103.052161	263.326000
-0.247600	-42.760000	-11.813300	-11.813300	103.546133	263.453000
-0.230600	-39.840000	-11.326700	-11.326700	104.118436	263.595000
-0.216400	-37.380000	-10.906700	-10.906700	104.612408	263.723000
-0.201100	-34.740000	-10.486700	-10.486700	105.106380	263.856000
-0.186400	-32.200000	-10.000000	-10.000000	105.678800	263.988000
-0.173200	-29.920000	-9.546700	-9.546700	106.211938	264.113000
-0.159900	-27.620000	-9.126700	-9.126700	106.705910	264.238000
-0.147000	-25.400000	-8.706700	-8.706700	107.199882	264.364000
-0.133600	-23.080000	-8.286700	-8.286700	107.693855	264.494000
-0.118900	-20.540000	-7.893300	-7.893300	108.156542	264.632000
-0.104200	-18.000000	-7.440000	-7.440000	108.689680	264.774000
-0.089500	-15.460000	-6.986700	-6.986700	109.222817	264.922000
-0.076800	-13.260000	-6.506700	-6.506700	109.787357	265.059000
-0.064400	-11.120000	-6.053300	-6.053300	110.320612	265.193000
-0.052600	-9.080000	-5.633300	-5.633300	110.814584	265.326000
-0.040300	-6.960000	-5.273300	-5.273300	111.237989	265.464000
-0.026700	-4.620000	-4.820000	-4.820000	111.771126	265.617000
-0.014700	-2.540000	-4.366700	-4.366700	112.304263	265.763000
-0.002500	-0.440000	-3.946700	-3.946700	112.798236	265.913000
0.009700	1.680000	-3.526700	-3.526700	113.292208	266.065000
0.022200	3.840000	-3.073300	-3.073300	113.825463	266.222000
0.034400	5.940000	-2.620000	-2.620000	114.358600	266.379000
0.045300	7.820000	-2.166700	-2.166700	114.891738	266.526000
0.057800	9.980000	-1.780000	-1.780000	115.346545	266.683000
0.069700	12.040000	-1.360000	-1.360000	115.840517	266.841000
0.082200	14.200000	-0.906700	-0.906700	116.373655	267.004000
0.093900	16.220000	-0.486700	-0.486700	116.867627	267.163000
0.106100	18.320000	-0.033300	-0.033300	117.400882	267.326000
0.101300	17.500000	0.000000	0.000000	117.440047	267.332000
0.086800	15.000000	-0.160000	-0.160000	117.628227	267.213000
