#
#
#
#
#
#
#
#  Quelldatei:viscoel1.gxx
#  Zieldatei:viscoel001.dat
#
#  Querschnitt:   170.873
#   Messlaenge:    15.000
# [N/mm**2]	 [N]	       [%-ext]           %-trav]       [s]               [mm]
0.000000	0.000000	0.000000	0.000000	0.000000	267.645000
0.015200	2.600000	0.066700	0.066700	0.623364	267.645000
0.037800	6.460000	0.746700	0.746700	6.978505	267.924000
0.066400	11.340000	1.746700	1.746700	16.324299	268.326000
0.096600	16.500000	3.006700	3.006700	28.100000	268.795000
0.128400	21.940000	4.433300	4.433300	41.432710	269.317000
0.158100	27.020000	5.860000	5.860000	54.766355	269.857000
0.188300	32.180000	7.380000	7.380000	68.971963	270.429000
0.216700	37.020000	8.993300	8.993300	84.049533	271.009000
0.242800	41.480000	10.613300	10.613300	99.189720	271.584000
0.267300	45.680000	12.166700	12.166700	113.707477	272.166000
0.290900	49.700000	13.853300	13.853300	129.470093	272.757000
0.312700	53.440000	15.533300	15.533300	145.171028	273.338000
0.332800	56.860000	17.120000	17.120000	160.000000	273.906000
0.351700	60.100000	18.733300	18.733300	175.077570	274.478000
0.369300	63.100000	20.453300	20.453300	191.152336	275.046000
0.386700	66.080000	22.040000	22.040000	205.981308	275.616000
0.401900	68.680000	23.786700	23.786700	222.305607	276.171000
0.416600	71.180000	25.400000	25.400000	237.383178	276.720000
0.429900	73.460000	27.020000	27.020000	252.523364	277.264000
0.442800	75.660000	28.733300	28.733300	268.535514	277.805000
0.455100	77.760000	30.320000	30.320000	283.364486	278.343000
0.466700	79.740000	31.940000	31.940000	298.504673	278.874000
0.477300	81.560000	33.686700	33.686700	314.828972	279.406000
0.488200	83.420000	35.240000	35.240000	329.345794	279.934000
0.497800	85.060000	37.020000	37.020000	345.981308	280.450000
0.507000	86.640000	38.640000	38.640000	361.121495	280.959000
0.515800	88.140000	40.193300	40.193300	375.638318	281.470000
0.525000	89.700000	41.840000	41.840000	391.028037	281.988000
0.532800	91.040000	43.526700	43.526700	406.791589	282.492000
0.541200	92.480000	45.080000	45.080000	421.308411	283.004000
0.548700	93.760000	46.826700	46.826700	437.632710	283.506000
0.556000	95.000000	48.473300	48.473300	453.021495	284.001000
0.562900	96.180000	49.993300	49.993300	467.227103	284.486000
0.570100	97.420000	51.613300	51.613300	482.367290	284.993000
0.577000	98.600000	53.266700	53.266700	497.819626	285.493000
0.583800	99.760000	54.880000	54.880000	512.897196	285.994000
0.590400	100.880000	56.500000	56.500000	528.037383	286.493000
0.597200	102.040000	58.153300	58.153300	543.488785	287.000000
0.603400	103.100000	59.733300	59.733300	558.255140	287.498000
0.609800	104.200000	61.386700	61.386700	573.707477	287.995000
0.615800	105.220000	63.006700	63.006700	588.847664	288.493000
0.622000	106.280000	64.620000	64.620000	603.925234	288.993000
0.628200	107.340000	66.273300	66.273300	619.376636	289.489000
0.634000	108.340000	67.860000	67.860000	634.205607	289.982000
0.640500	109.440000	69.413300	69.413300	648.722430	290.487000
0.646800	110.520000	71.000000	71.000000	663.551402	290.995000
0.653100	111.600000	72.646700	72.646700	678.941121	291.510000
0.659700	112.720000	74.266700	74.266700	694.081308	292.023000
0.665600	113.740000	75.913300	75.913300	709.470093	292.527000
0.671800	114.800000	77.633300	77.633300	725.544860	293.029000
0.677900	115.840000	79.186700	79.186700	740.062617	293.523000
0.685200	117.080000	80.640000	80.640000	753.644860	294.039000
0.692100	118.260000	82.293300	82.293300	769.096262	294.563000
0.699100	119.460000	83.906700	83.906700	784.174766	295.086000
0.706300	120.680000	85.493300	85.493300	799.002804	295.608000
0.714000	122.000000	87.080000	87.080000	813.831776	296.146000
0.721200	123.240000	88.700000	88.700000	828.971963	296.673000
0.729300	124.620000	90.346700	90.346700	844.361682	297.208000
0.737500	126.020000	91.900000	91.900000	858.878505	297.744000
0.746100	127.480000	93.420000	93.420000	873.084112	298.288000
0.755200	129.040000	95.106700	95.106700	888.847664	298.841000
0.764000	130.540000	96.693300	96.693300	903.675701	299.389000
0.773400	132.160000	98.246700	98.246700	918.193458	299.944000
0.784000	133.960000	99.833300	99.833300	933.021495	300.514000
0.775100	132.440000	100.120000	100.120000	935.700935	300.560000
0.754400	128.900000	99.540000	99.540000	941.121495	300.227000
0.733900	125.400000	98.473300	98.473300	951.090654	299.772000
0.715300	122.220000	97.080000	97.080000	964.112150	299.260000
0.697600	119.200000	95.626700	95.626700	977.694393	298.714000
0.681600	116.460000	94.006700	94.006700	992.834579	298.165000
0.666500	113.880000	92.520000	92.520000	1006.728972	297.600000
0.651800	111.380000	90.900000	90.900000	1021.869159	297.019000
0.638300	109.060000	89.213300	89.213300	1037.632710	296.448000
0.626000	106.960000	87.500000	87.500000	1053.644860	295.887000
0.613600	104.840000	85.946700	85.946700	1068.161682	295.328000
0.601700	102.820000	84.493300	84.493300	1081.744860	294.760000
0.590300	100.860000	82.806700	82.806700	1097.507477	294.182000
0.579800	99.080000	81.060000	81.060000	1113.831776	293.623000
0.569000	97.220000	79.446700	79.446700	1128.909346	293.062000
0.559100	95.540000	77.633300	77.633300	1145.857009	292.514000
0.550300	94.040000	75.913300	75.913300	1161.931776	292.001000
0.541200	92.480000	74.233300	74.233300	1177.632710	291.489000
0.532300	90.960000	72.613300	72.613300	1192.772897	290.982000
0.523500	89.460000	71.033300	71.033300	1207.539252	290.477000
0.515100	88.020000	69.380000	69.380000	1222.990654	289.966000
0.506200	86.500000	67.726700	67.726700	1238.442056	289.458000
0.497700	85.040000	66.080000	66.080000	1253.831776	288.962000
0.489400	83.620000	64.460000	64.460000	1268.971963	288.469000
0.480800	82.160000	62.873300	62.873300	1283.800935	287.971000
0.471900	80.640000	61.226700	61.226700	1299.189720	287.472000
0.463400	79.180000	59.606700	59.606700	1314.329907	286.976000
0.454800	77.720000	57.860000	57.860000	1330.654206	286.479000
0.446100	76.220000	56.306700	56.306700	1345.171028	285.991000
0.437300	74.720000	54.686700	54.686700	1360.311215	285.498000
0.428000	73.140000	53.133300	53.133300	1374.828972	285.003000
0.418800	71.560000	51.453300	51.453300	1390.529907	284.506000
0.409100	69.900000	49.900000	49.900000	1405.046729	284.011000
0.399600	68.280000	48.186700	48.186700	1421.058879	283.517000
0.390200	66.680000	46.500000	46.500000	1436.822430	283.029000
0.380200	64.960000	44.913300	44.913300	1451.651402	282.545000
0.370200	63.260000	43.300000	43.300000	1466.728972	282.059000
0.359900	61.500000	41.680000	41.680000	1481.869159	281.573000
0.349500	59.720000	40.126700	40.126700	1496.385981	281.087000
0.338100	57.780000	38.540000	38.540000	1511.214953	280.587000
0.326700	55.820000	36.893300	36.893300	1526.604673	280.089000
0.315000	53.820000	35.306700	35.306700	1541.432710	279.594000
0.302700	51.720000	33.720000	33.720000	1556.261682	279.092000
0.290000	49.560000	32.100000	32.100000	1571.401869	278.590000
0.276700	47.280000	30.513300	30.513300	1586.230841	278.078000
0.262700	44.880000	28.926700	28.926700	1601.058879	277.560000
0.248600	42.480000	27.280000	27.280000	1616.448598	277.047000
0.233500	39.900000	25.760000	25.760000	1630.654206	276.527000
0.217900	37.240000	24.106700	24.106700	1646.105607	276.001000
0.202400	34.580000	22.460000	22.460000	1661.495327	275.479000
0.185600	31.720000	20.906700	20.906700	1676.012150	274.954000
0.168400	28.780000	19.220000	19.220000	1691.775701	274.420000
0.150400	25.700000	17.700000	17.700000	1705.981308	273.893000
0.131300	22.440000	16.113300	16.113300	1720.810280	273.351000
0.111700	19.080000	14.526700	14.526700	1735.638318	272.808000
0.091100	15.560000	12.913300	12.913300	1750.716822	272.258000
0.069600	11.900000	11.393300	11.393300	1764.922430	271.706000
0.046600	7.960000	9.740000	9.740000	1780.373832	271.139000
0.023500	4.020000	8.120000	8.120000	1795.514019	270.578000
-0.000500	-0.080000	6.600000	6.600000	1809.719626	270.013000
-0.026100	-4.460000	5.046700	5.046700	1824.236449	269.431000
-0.052100	-8.900000	3.526700	3.526700	1838.442056	268.839000
-0.082400	-14.080000	1.813300	1.813300	1854.455140	268.240000
-0.116800	-19.960000	0.193300	0.193300	1869.595327	267.652000
-0.152700	-26.100000	-1.653300	-1.653300	1886.853271	267.076000
-0.190400	-32.540000	-3.233300	-3.233300	1901.619626	266.520000
-0.229800	-39.260000	-4.953300	-4.953300	1917.694393	265.965000
-0.270300	-46.180000	-6.666700	-6.666700	1933.707477	265.426000
-0.312700	-53.440000	-8.346700	-8.346700	1949.408411	264.896000
-0.354600	-60.600000	-10.033300	-10.033300	1965.171028	264.383000
-0.398500	-68.100000	-11.713300	-11.713300	1980.871963	263.875000
-0.442100	-75.540000	-13.333300	-13.333300	1996.012150	263.378000
-0.487000	-83.220000	-14.980000	-14.980000	2011.401869	262.880000
-0.535000	-91.420000	-16.566700	-16.566700	2026.230841	262.376000
-0.584300	-99.840000	-18.186700	-18.186700	2041.371028	261.875000
-0.633500	-108.240000	-19.866700	-19.866700	2057.071963	261.378000
-0.685800	-117.180000	-21.486700	-21.486700	2072.212150	260.884000
-0.737700	-126.060000	-23.140000	-23.140000	2087.663551	260.395000
-0.792400	-135.400000	-24.660000	-24.660000	2101.869159	259.905000
-0.784600	-134.060000	-25.080000	-25.080000	2105.794393	259.789000
-0.726300	-124.100000	-24.493300	-24.493300	2111.277570	260.059000
-0.656600	-112.200000	-23.333300	-23.333300	2122.118692	260.458000
-0.587000	-100.300000	-21.840000	-21.840000	2136.074766	260.915000
-0.524800	-89.680000	-20.320000	-20.320000	2150.280374	261.375000
-0.465100	-79.480000	-18.766700	-18.766700	2164.797196	261.854000
-0.408700	-69.840000	-17.180000	-17.180000	2179.626168	262.340000
-0.356900	-60.980000	-15.626700	-15.626700	2194.142991	262.820000
-0.305800	-52.260000	-14.013300	-14.013300	2209.221495	263.321000
-0.258400	-44.160000	-12.360000	-12.360000	2224.672897	263.818000
-0.213500	-36.480000	-10.773300	-10.773300	2239.501869	264.314000
-0.171200	-29.260000	-9.193300	-9.193300	2254.268224	264.811000
-0.130700	-22.340000	-7.540000	-7.540000	2269.719626	265.320000
-0.094000	-16.060000	-5.986700	-5.986700	2284.236449	265.819000
-0.058300	-9.960000	-4.433300	-4.433300	2298.754206	266.336000
-0.024500	-4.180000	-2.946700	-2.946700	2312.647664	266.861000
0.008200	1.400000	-1.486700	-1.486700	2326.292523	267.415000
0.041000	7.000000	0.126700	0.126700	2341.371028	267.988000
0.072200	12.340000	1.680000	1.680000	2355.887850	268.564000
0.101600	17.360000	3.266700	3.266700	2370.716822	269.134000
0.130400	22.280000	4.886700	4.886700	2385.857009	269.721000
0.158100	27.020000	6.440000	6.440000	2400.373832	270.312000
0.184000	31.440000	8.186700	8.186700	2416.698131	270.900000
0.207900	35.520000	9.806700	9.806700	2431.838318	271.472000
0.230800	39.440000	11.293300	11.293300	2445.731776	272.055000
0.252800	43.200000	13.040000	13.040000	2462.056075	272.644000
0.272800	46.620000	14.726700	14.726700	2477.819626	273.212000
0.291900	49.880000	16.340000	16.340000	2492.897196	273.779000
0.310200	53.000000	17.993300	17.993300	2508.348598	274.345000
0.327000	55.880000	19.673300	19.673300	2524.049533	274.904000
0.343300	58.660000	21.260000	21.260000	2538.878505	275.462000
0.359300	61.400000	22.940000	22.940000	2554.579439	276.023000
0.373000	63.740000	24.660000	24.660000	2570.654206	276.560000
0.386500	66.040000	26.213300	26.213300	2585.171028	277.100000
0.399800	68.320000	27.993300	27.993300	2601.806542	277.642000
0.411900	70.380000	29.546700	29.546700	2616.324299	278.166000
0.423800	72.420000	31.160000	31.160000	2631.401869	278.696000
0.435200	74.360000	32.846700	32.846700	2647.165421	279.228000
0.446200	76.240000	34.433300	34.433300	2661.993458	279.752000
0.456100	77.940000	36.180000	36.180000	2678.317757	280.267000
0.465800	79.600000	37.793300	37.793300	2693.395327	280.773000
0.475200	81.200000	39.380000	39.380000	2708.224299	281.278000
0.484500	82.780000	41.000000	41.000000	2723.364486	281.793000
0.493500	84.320000	42.653300	42.653300	2738.815888	282.312000
0.502000	85.780000	44.300000	44.300000	2754.205607	282.818000
0.510200	87.180000	45.986700	45.986700	2769.969159	283.320000
0.517900	88.500000	47.600000	47.600000	2785.046729	283.810000
0.525400	89.780000	49.220000	49.220000	2800.186916	284.300000
0.533600	91.180000	50.806700	50.806700	2815.015888	284.808000
0.540800	92.400000	52.486700	52.486700	2830.716822	285.303000
0.548000	93.640000	54.040000	54.040000	2845.233645	285.795000
0.555000	94.840000	55.693300	55.693300	2860.685047	286.292000
0.562400	96.100000	57.306700	57.306700	2875.763551	286.798000
0.569200	97.260000	58.893300	58.893300	2890.591589	287.295000
0.575700	98.380000	60.613300	60.613300	2906.666355	287.791000
0.582500	99.540000	62.133300	62.133300	2920.871963	288.289000
0.589400	100.720000	63.780000	63.780000	2936.261682	288.794000
0.596100	101.860000	65.466700	65.466700	2952.025234	289.290000
0.602700	102.980000	67.080000	67.080000	2967.102804	289.783000
0.609300	104.120000	68.600000	68.600000	2981.308411	290.276000
0.616100	105.280000	70.220000	70.220000	2996.448598	290.787000
0.623000	106.460000	71.840000	71.840000	3011.588785	291.292000
0.629800	107.620000	73.460000	73.460000	3026.728972	291.801000
0.636700	108.800000	75.106700	75.106700	3042.118692	292.305000
0.643500	109.960000	76.793300	76.793300	3057.881308	292.811000
0.650200	111.100000	78.373300	78.373300	3072.647664	293.307000
0.657400	112.340000	79.900000	79.900000	3086.915888	293.815000
0.664800	113.600000	81.453300	81.453300	3101.432710	294.336000
0.672500	114.920000	83.100000	83.100000	3116.822430	294.868000
0.680500	116.280000	84.720000	84.720000	3131.962617	295.399000
0.688200	117.600000	86.273300	86.273300	3146.479439	295.923000
0.696800	119.060000	87.920000	87.920000	3161.869159	296.465000
0.705000	120.460000	89.540000	89.540000	3177.009346	296.994000
0.713600	121.940000	91.093300	91.093300	3191.526168	297.530000
0.723000	123.540000	92.613300	92.613300	3205.731776	298.080000
0.732500	125.160000	94.300000	94.300000	3221.495327	298.632000
0.742300	126.840000	95.853300	95.853300	3236.012150	299.186000
0.752500	128.580000	97.433300	97.433300	3250.778505	299.742000
0.763000	130.380000	98.986700	98.986700	3265.296262	300.301000
0.765400	130.780000	100.060000	100.060000	3275.327103	300.671000
0.751300	128.380000	99.960000	99.960000	3276.261682	300.520000
0.731500	125.000000	99.053300	99.053300	3284.735514	300.123000
0.711600	121.600000	97.826700	97.826700	3296.199065	299.628000
0.694000	118.580000	96.366700	96.366700	3309.843925	299.102000
0.677600	115.780000	94.846700	94.846700	3324.049533	298.554000
0.662100	113.140000	93.226700	93.226700	3339.189720	298.004000
0.647800	110.700000	91.706700	91.706700	3353.395327	297.447000
0.634000	108.340000	90.093300	90.093300	3368.473832	296.878000
0.621300	106.160000	88.373300	88.373300	3384.548598	296.317000
0.609500	104.140000	86.726700	86.726700	3399.937383	295.775000
0.597600	102.120000	85.073300	85.073300	3415.389720	295.221000
0.586800	100.260000	83.453300	83.453300	3430.529907	294.682000
0.576200	98.460000	81.806700	81.806700	3445.918692	294.135000
0.566000	96.720000	80.153300	80.153300	3461.371028	293.599000
0.555900	94.980000	78.540000	78.540000	3476.448598	293.060000
0.546000	93.300000	76.820000	76.820000	3492.523364	292.521000
0.537000	91.760000	75.106700	75.106700	3508.535514	292.006000
0.528100	90.240000	73.520000	73.520000	3523.364486	291.495000
0.519100	88.700000	71.873300	71.873300	3538.754206	290.980000
0.510100	87.160000	70.253300	70.253300	3553.894393	290.466000
0.501500	85.700000	68.633300	68.633300	3569.034579	289.955000
0.492500	84.160000	67.020000	67.020000	3584.112150	289.439000
0.483900	82.680000	65.366700	65.366700	3599.563551	288.929000
0.475300	81.220000	63.720000	63.720000	3614.953271	288.430000
0.466700	79.740000	62.100000	62.100000	3630.093458	287.923000
0.458000	78.260000	60.446700	60.446700	3645.544860	287.425000
0.449000	76.720000	58.860000	58.860000	3660.373832	286.921000
0.440800	75.320000	57.180000	57.180000	3676.074766	286.427000
0.431800	73.780000	55.560000	55.560000	3691.214953	285.930000
0.422800	72.240000	53.973300	53.973300	3706.043925	285.434000
0.413600	70.680000	52.360000	52.360000	3721.121495	284.939000
0.404700	69.160000	50.673300	50.673300	3736.885047	284.448000
0.394600	67.420000	49.120000	49.120000	3751.401869	283.943000
0.385300	65.840000	47.473300	47.473300	3766.791589	283.448000
0.375400	64.140000	45.786700	45.786700	3782.554206	282.952000
0.365200	62.400000	44.206700	44.206700	3797.320561	282.462000
0.355500	60.740000	42.553300	42.553300	3812.772897	281.975000
0.344900	58.940000	40.966700	40.966700	3827.600935	281.482000
0.334200	57.100000	39.413300	39.413300	3842.118692	280.988000
0.322700	55.140000	37.766700	37.766700	3857.507477	280.486000
0.311100	53.160000	36.146700	36.146700	3872.647664	279.985000
0.299200	51.120000	34.526700	34.526700	3887.787850	279.488000
0.286800	49.000000	32.940000	32.940000	3902.616822	278.980000
0.273900	46.800000	31.326700	31.326700	3917.694393	278.476000
0.260500	44.520000	29.773300	29.773300	3932.212150	277.964000
0.246700	42.160000	28.153300	28.153300	3947.352336	277.447000
0.232300	39.700000	26.473300	26.473300	3963.053271	276.932000
0.217500	37.160000	24.980000	24.980000	3977.009346	276.415000
0.202000	34.520000	23.300000	23.300000	3992.710280	275.889000
0.186200	31.820000	21.713300	21.713300	4007.539252	275.367000
0.169200	28.920000	20.160000	20.160000	4022.056075	274.837000
0.151900	25.960000	18.480000	18.480000	4037.757009	274.307000
0.133700	22.840000	16.893300	16.893300	4052.585981	273.774000
0.114700	19.600000	15.306700	15.306700	4067.414019	273.231000
0.094800	16.200000	13.786700	13.786700	4081.619626	272.689000
0.074600	12.740000	12.133300	12.133300	4097.071963	272.138000
0.053000	9.060000	10.613300	10.613300	4111.277570	271.586000
0.030800	5.260000	8.993300	8.993300	4126.417757	271.028000
0.007500	1.280000	7.380000	7.380000	4141.495327	270.459000
-0.016600	-2.840000	5.826700	5.826700	4156.012150	269.883000
-0.041600	-7.100000	4.333300	4.333300	4169.969159	269.299000
-0.069400	-11.860000	2.780000	2.780000	4184.485981	268.701000
-0.101000	-17.260000	1.000000	1.000000	4201.121495	268.102000
-0.135000	-23.060000	-0.680000	-0.680000	4216.822430	267.521000
-0.170100	-29.060000	-2.360000	-2.360000	4232.523364	266.958000
-0.208000	-35.540000	-3.980000	-3.980000	4247.663551	266.396000
-0.246400	-42.100000	-5.726700	-5.726700	4263.987850	265.846000
-0.287300	-49.100000	-7.413300	-7.413300	4279.750467	265.301000
-0.329700	-56.340000	-9.126700	-9.126700	4295.763551	264.766000
-0.371700	-63.520000	-10.773300	-10.773300	4311.152336	264.252000
-0.415900	-71.060000	-12.426700	-12.426700	4326.604673	263.739000
-0.459600	-78.540000	-14.073300	-14.073300	4341.993458	263.236000
-0.505200	-86.320000	-15.660000	-15.660000	4356.822430	262.734000
-0.553400	-94.560000	-17.346700	-17.346700	4372.585981	262.225000
-0.602800	-103.000000	-18.960000	-18.960000	4387.663551	261.722000
-0.652600	-111.520000	-20.613300	-20.613300	4403.114953	261.226000
-0.704300	-120.340000	-22.293300	-22.293300	4418.815888	260.732000
-0.757800	-129.480000	-23.913300	-23.913300	4433.956075	260.242000
-0.790300	-135.040000	-25.080000	-25.080000	4444.859813	259.865000
-0.756400	-129.240000	-24.946700	-24.946700	4446.105607	259.964000
-0.688200	-117.600000	-23.980000	-23.980000	4455.140187	260.312000
-0.618900	-105.760000	-22.653300	-22.653300	4467.539252	260.740000
-0.555500	-94.920000	-21.100000	-21.100000	4482.056075	261.192000
-0.496500	-84.840000	-19.613300	-19.613300	4495.950467	261.652000
-0.439700	-75.140000	-18.026700	-18.026700	4510.778505	262.129000
-0.384600	-65.720000	-16.406700	-16.406700	4525.918692	262.619000
-0.335100	-57.260000	-14.886700	-14.886700	4540.124299	263.098000
-0.285200	-48.740000	-13.266700	-13.266700	4555.264486	263.601000
-0.240500	-41.100000	-11.646700	-11.646700	4570.404673	264.093000
-0.197200	-33.700000	-10.066700	-10.066700	4585.171028	264.595000
-0.156500	-26.740000	-8.446700	-8.446700	4600.311215	265.098000
-0.118300	-20.220000	-6.860000	-6.860000	4615.140187	265.606000
-0.082200	-14.040000	-5.273300	-5.273300	4629.969159	266.116000
-0.047300	-8.080000	-3.686700	-3.686700	4644.797196	266.641000
-0.015500	-2.640000	-2.300000	-2.300000	4657.757009	267.174000
0.016700	2.860000	-0.713300	-0.713300	4672.585981	267.744000
0.047600	8.140000	0.806700	0.806700	4686.791589	268.308000
0.078500	13.420000	2.460000	2.460000	4702.242991	268.888000
0.107100	18.300000	4.013300	4.013300	4716.759813	269.465000
0.135100	23.080000	5.633300	5.633300	4731.900000	270.053000
0.161500	27.600000	7.313300	7.313300	4747.600935	270.639000
0.185000	31.620000	8.993300	8.993300	4763.301869	271.201000
0.208200	35.580000	10.580000	10.580000	4778.130841	271.772000
